"RT_problem","RT_response","Retrieval","Transformation","block","correct","correct_response","cur_problem","datetime","experiment_file","fix_dur","practice","problem_type","response","subject_nr","time_feedback","time_fixation","time_fixation_end","time_keypad","time_problem","trial"
"4955","1238","two","two","0","1","5","2x - 4 = 6","Fri Oct 18 10:36:59 2024","Algebra-3.osexp","439","yes","5","5","1","27310","20663","28307","26061","21105","1"
"1331","655","one","one","0","1","1","8x = 8","Fri Oct 18 10:36:59 2024","Algebra-3.osexp","537","yes","4","1","1","31869","29332","32866","31204","29872","2"
"1612","663","one","one","0","1","1","3x = 3","Fri Oct 18 10:36:59 2024","Algebra-3.osexp","505","yes","4","1","1","36685","33889","37682","36013","34400","3"
"2719","982","two","two","0","1","4","9x + 9 = 45","Fri Oct 18 10:36:59 2024","Algebra-3.osexp","549","yes","5","4","1","42972","38709","43969","41981","39260","4"
"1861","1367","one","one","0","1","9","6x = 54","Fri Oct 18 10:36:59 2024","Algebra-3.osexp","485","yes","4","9","1","48724","44999","49721","47349","45486","5"
"831","1630","two","two","0","0","4","3x - 2 = 10","Fri Oct 18 10:36:59 2024","Algebra-3.osexp","431","yes","5","2","1","53653","50747","54650","52013","51180","6"
"1232","686","minimal","one","0","1","1","x + 8 = 9","Fri Oct 18 10:36:59 2024","Algebra-3.osexp","536","yes","2","1","1","58148","55681","59145","57453","56219","7"
"2390","892","minimal","one","0","1","5","x + 2 = 7","Fri Oct 18 10:36:59 2024","Algebra-3.osexp","417","yes","2","5","1","63883","60170","64881","62983","60589","8"
"1397","1047","minimal","one","0","1","7","x + 1 = 8","Fri Oct 18 10:36:59 2024","Algebra-3.osexp","433","yes","2","7","1","68805","65912","69802","67749","66351","9"
"2456","1286","minimal","one","1","1","7","x - 5 = 2","Fri Oct 18 10:36:59 2024","Algebra-3.osexp","488","no","2","7","1","83067","78825","84064","81773","79315","10"
"1229","830","minimal","one","1","1","6","x - 3 = 3","Fri Oct 18 10:36:59 2024","Algebra-3.osexp","463","no","2","6","1","87628","85092","88625","86789","85558","11"
"2090","869","one","one","1","1","6","7x = 42","Fri Oct 18 10:36:59 2024","Algebra-3.osexp","450","no","4","6","1","93078","89652","94075","92198","90105","12"
"3009","1294","minimal","one","1","1","5","x - 4 = 1","Fri Oct 18 10:36:59 2024","Algebra-3.osexp","588","no","2","5","1","100012","95105","101009","98709","95698","13"
"4056","1278","two","two","1","1","6","8x - 3 = 45","Fri Oct 18 10:36:59 2024","Algebra-3.osexp","504","no","5","6","1","107892","102037","108889","106605","102547","14"
"3774","854","two","two","1","1","7","8x + 9 = 65","Fri Oct 18 10:36:59 2024","Algebra-3.osexp","533","no","5","7","1","115092","109919","116090","114229","110453","15"
"1223","750","minimal","one","1","1","2","x - 1 = 1","Fri Oct 18 10:36:59 2024","Algebra-3.osexp","433","no","2","2","1","119532","117109","120529","118773","117548","16"
"4068","1150","two","two","1","1","9","8x + 4 = 76","Fri Oct 18 10:36:59 2024","Algebra-3.osexp","533","no","5","9","1","127323","121559","128320","126165","122095","17"
"4043","798","minimal","one","1","1","2","x + 3 = 5","Fri Oct 18 10:36:59 2024","Algebra-3.osexp","489","no","2","2","1","134692","129349","135689","133885","129840","18"
"1737","622","one","one","1","1","1","7x = 7","Fri Oct 18 10:36:59 2024","Algebra-3.osexp","594","no","4","1","1","139684","136717","140681","139053","137315","19"
"5001","0","two","two","1","0","3","7x - 1 = 20","Fri Oct 18 10:36:59 2024","Algebra-3.osexp","412","no","5","None","1","147129","141705","148126","139053","142120","20"
"3251","918","two","two","1","1","8","2x + 8 = 24","Fri Oct 18 10:36:59 2024","Algebra-3.osexp","509","no","5","8","1","153844","149151","154842","152917","149664","21"
"1155","814","one","one","1","1","7","2x = 14","Fri Oct 18 10:36:59 2024","Algebra-3.osexp","549","no","4","7","1","158395","155865","159392","157573","156416","22"
"2808","678","minimal","one","1","1","6","x - 1 = 5","Fri Oct 18 10:36:59 2024","Algebra-3.osexp","549","no","2","6","1","164469","160420","165466","163781","160971","23"
"1448","1229","minimal","one","1","1","8","x + 1 = 9","Fri Oct 18 10:36:59 2024","Algebra-3.osexp","456","no","2","8","1","169636","166488","170633","168398","166947","24"
"3796","999","two","two","1","1","8","2x - 4 = 12","Fri Oct 18 10:36:59 2024","Algebra-3.osexp","430","no","5","8","1","176901","171663","177898","175892","172095","25"
"1995","1518","one","one","1","1","7","4x = 28","Fri Oct 18 10:36:59 2024","Algebra-3.osexp","437","no","4","7","1","182884","178918","183881","181357","179360","26"
"3762","1286","two","two","1","1","1","3x + 9 = 12","Fri Oct 18 10:36:59 2024","Algebra-3.osexp","418","no","5","1","1","190388","184909","191385","189093","185329","27"
"3732","990","two","two","1","1","8","5x + 7 = 47","Fri Oct 18 10:36:59 2024","Algebra-3.osexp","450","no","5","8","1","197596","192408","198593","196597","192863","28"
"5001","0","minimal","one","1","0","8","x + 2 = 10","Fri Oct 18 10:36:59 2024","Algebra-3.osexp","415","no","2","None","1","205050","199623","206048","196597","200040","29"
"3661","1358","two","two","1","1","8","2x + 6 = 22","Fri Oct 18 10:36:59 2024","Algebra-3.osexp","423","no","5","8","1","212533","207074","213530","211165","207502","30"
"2216","1974","one","one","1","1","4","6x = 24","Fri Oct 18 10:36:59 2024","Algebra-3.osexp","415","no","4","4","1","219174","214554","220171","217189","214971","31"
"1952","718","minimal","one","1","1","7","x + 1 = 8","Fri Oct 18 10:36:59 2024","Algebra-3.osexp","403","no","2","7","1","224284","221197","225281","223557","221603","32"
"2846","605","one","one","1","1","1","9x = 9","Fri Oct 18 10:36:59 2024","Algebra-3.osexp","448","no","4","1","1","230219","226306","231216","229605","226757","33"
"1582","726","one","one","1","1","9","8x = 72","Fri Oct 18 10:36:59 2024","Algebra-3.osexp","569","no","4","9","1","235131","232242","236128","234397","232813","34"
"2134","958","one","one","1","1","5","4x = 20","Fri Oct 18 10:36:59 2024","Algebra-3.osexp","438","no","4","5","1","240701","237156","241698","239733","237597","35"
"1191","783","minimal","one","1","1","2","x + 8 = 10","Fri Oct 18 10:36:59 2024","Algebra-3.osexp","560","no","2","2","1","245281","242730","246278","244484","243292","36"
"904","791","one","one","1","1","2","8x = 16","Fri Oct 18 10:36:59 2024","Algebra-3.osexp","414","no","4","2","1","249427","247304","250424","248628","247723","37"
"1487","1470","minimal","one","1","1","9","x + 1 = 10","Fri Oct 18 10:36:59 2024","Algebra-3.osexp","395","no","2","9","1","254811","251447","255808","253333","251844","38"
"2684","694","two","two","1","1","7","8x - 5 = 51","Fri Oct 18 10:36:59 2024","Algebra-3.osexp","483","no","5","7","1","260715","256837","261712","260012","257326","39"
"1811","774","minimal","one","1","1","2","x + 8 = 10","Fri Oct 18 10:36:59 2024","Algebra-3.osexp","584","no","2","2","1","265924","262742","266921","265141","263328","40"
"2549","775","one","one","1","1","3","6x = 18","Fri Oct 18 10:36:59 2024","Algebra-3.osexp","541","no","4","3","1","271828","267947","272825","271044","268494","41"
"2171","1109","minimal","one","1","1","3","x - 1 = 2","Fri Oct 18 10:36:59 2024","Algebra-3.osexp","447","no","2","3","1","277596","273851","278594","276477","274304","42"
"2478","1846","two","two","1","0","7","6x - 6 = 36","Fri Oct 18 10:36:59 2024","Algebra-3.osexp","575","no","5","6","1","284531","279619","285528","282676","280196","43"
"1634","1390","one","one","1","1","2","9x = 18","Fri Oct 18 10:36:59 2024","Algebra-3.osexp","434","no","4","2","1","290037","286561","291034","288637","287001","44"
"3923","1494","two","two","1","1","4","4x - 3 = 13","Fri Oct 18 10:36:59 2024","Algebra-3.osexp","537","no","5","4","1","298027","292061","299024","296525","292600","45"
"1463","758","one","one","1","1","5","2x = 10","Fri Oct 18 10:36:59 2024","Algebra-3.osexp","593","no","4","5","1","302895","300049","303892","302109","300644","46"
"1231","1014","one","one","1","1","4","7x = 28","Fri Oct 18 10:36:59 2024","Algebra-3.osexp","398","no","4","4","1","307583","304923","308579","306557","305324","47"
"3799","1430","two","two","1","1","7","7x + 6 = 55","Fri Oct 18 10:36:59 2024","Algebra-3.osexp","412","no","5","7","1","315252","309599","316249","313813","310012","48"
"950","646","minimal","one","1","1","2","x - 1 = 1","Fri Oct 18 10:36:59 2024","Algebra-3.osexp","426","no","2","2","1","319316","317281","320313","318661","317709","49"
"2985","934","two","two","1","1","3","9x + 2 = 29","Fri Oct 18 10:36:59 2024","Algebra-3.osexp","446","no","5","3","1","325723","321341","326722","324780","321793","50"
"2902","918","two","two","1","1","6","9x - 1 = 53","Fri Oct 18 10:36:59 2024","Algebra-3.osexp","539","no","5","6","1","332123","327751","333120","331196","328292","51"
"2333","1126","one","one","1","1","8","6x = 48","Fri Oct 18 10:36:59 2024","Algebra-3.osexp","401","no","4","8","1","338029","334151","339026","336893","334558","52"
"2178","1125","two","two","1","1","8","2x - 2 = 14","Fri Oct 18 10:36:59 2024","Algebra-3.osexp","453","no","5","8","1","343829","340057","344826","342693","340512","53"
"3394","830","minimal","one","1","1","2","x + 3 = 5","Fri Oct 18 10:36:59 2024","Algebra-3.osexp","446","no","2","2","1","350541","345854","351538","349700","346304","54"
"1228","822","one","one","1","1","3","3x = 9","Fri Oct 18 10:36:59 2024","Algebra-3.osexp","455","no","4","3","1","355084","352566","356081","354252","353023","55"
"2832","702","minimal","one","1","1","4","x - 1 = 3","Fri Oct 18 10:36:59 2024","Algebra-3.osexp","508","no","2","4","1","361163","357106","362160","360453","357619","56"
"1242","1110","one","one","1","1","3","3x = 9","Fri Oct 18 10:36:59 2024","Algebra-3.osexp","457","no","4","3","1","366012","363187","367009","364892","363648","57"
"2310","1758","one","one","1","1","6","9x = 54","Fri Oct 18 10:36:59 2024","Algebra-3.osexp","547","no","4","6","1","372660","368032","373657","370893","368581","58"
"2805","966","minimal","one","1","1","9","x - 6 = 3","Fri Oct 18 10:36:59 2024","Algebra-3.osexp","495","no","2","9","1","378963","374684","379960","377989","375182","59"
"2933","703","two","two","1","1","2","2x + 4 = 8","Fri Oct 18 10:36:59 2024","Algebra-3.osexp","468","no","5","2","1","385107","380989","386104","384396","381462","60"
"806","1046","one","one","1","1","4","5x = 20","Fri Oct 18 10:36:59 2024","Algebra-3.osexp","530","no","4","4","1","389532","387132","390530","388476","387668","61"
"3699","1438","one","one","1","1","7","6x = 42","Fri Oct 18 10:36:59 2024","Algebra-3.osexp","454","no","4","7","1","397156","391551","398153","395709","392008","62"
"1003","877","one","one","1","1","2","7x = 14","Fri Oct 18 10:36:59 2024","Algebra-3.osexp","460","no","4","2","1","401539","399183","402536","400653","399647","63"
"1856","894","two","two","1","1","3","8x - 1 = 23","Fri Oct 18 10:36:59 2024","Algebra-3.osexp","467","no","5","3","1","406796","403566","407794","405893","404035","64"
"3923","1310","two","two","1","0","5","7x - 1 = 34","Fri Oct 18 10:36:59 2024","Algebra-3.osexp","489","no","5","6","1","414556","408821","415554","413237","409312","65"
"3703","1014","minimal","one","1","1","6","x + 2 = 8","Fri Oct 18 10:36:59 2024","Algebra-3.osexp","591","no","2","6","1","421907","416584","422904","420885","417180","66"
"1716","886","minimal","one","1","1","6","x + 4 = 10","Fri Oct 18 10:36:59 2024","Algebra-3.osexp","430","no","2","6","1","426980","423934","427977","426084","424366","67"
"1256","1374","minimal","one","1","1","9","x - 1 = 8","Fri Oct 18 10:36:59 2024","Algebra-3.osexp","490","no","2","9","1","432139","429006","433136","430756","429498","68"
"2401","853","two","two","1","1","9","9x - 2 = 79","Fri Oct 18 10:36:59 2024","Algebra-3.osexp","465","no","5","9","1","437899","434166","438897","437037","434633","69"
"1684","542","minimal","one","2","1","1","x + 7 = 8","Fri Oct 18 10:36:59 2024","Algebra-3.osexp","492","no","2","1","1","509052","506317","510049","508501","506815","70"
"953","854","one","one","2","1","5","9x = 45","Fri Oct 18 10:36:59 2024","Algebra-3.osexp","434","no","4","5","1","513339","511081","514336","512476","511521","71"
"1972","678","two","two","2","0","3","2x - 1 = 5","Fri Oct 18 10:36:59 2024","Algebra-3.osexp","495","no","5","2","1","518524","515362","519521","517836","515862","72"
"3294","719","minimal","one","2","0","9","x - 6 = 3","Fri Oct 18 10:36:59 2024","Algebra-3.osexp","445","no","2","8","1","525020","520547","526017","524292","520997","73"
"1818","1063","two","two","2","1","4","7x - 1 = 27","Fri Oct 18 10:36:59 2024","Algebra-3.osexp","488","no","5","4","1","530428","527046","531425","529356","527536","74"
"2064","710","minimal","one","2","1","7","x - 3 = 4","Fri Oct 18 10:36:59 2024","Algebra-3.osexp","594","no","2","7","1","535836","532452","536834","535116","533050","75"
"2107","1150","minimal","one","2","1","7","x - 4 = 3","Fri Oct 18 10:36:59 2024","Algebra-3.osexp","519","no","2","7","1","541654","537858","542651","540492","538383","76"
"5000","0","two","two","2","0","3","6x + 4 = 22","Fri Oct 18 10:36:59 2024","Algebra-3.osexp","427","no","5","None","1","549115","543675","550112","540492","544106","77"
"1794","942","one","one","2","1","9","8x = 72","Fri Oct 18 10:36:59 2024","Algebra-3.osexp","587","no","4","9","1","554474","551139","555471","553524","551728","78"
"1426","878","one","one","2","1","6","4x = 24","Fri Oct 18 10:36:59 2024","Algebra-3.osexp","582","no","4","6","1","559403","556501","560400","558516","557088","79"
"2485","951","one","one","2","1","7","4x = 28","Fri Oct 18 10:36:59 2024","Algebra-3.osexp","461","no","4","7","1","565341","561429","566340","564380","561893","80"
"1549","958","one","one","2","1","6","5x = 30","Fri Oct 18 10:36:59 2024","Algebra-3.osexp","444","no","4","6","1","570332","567363","571329","569364","567813","81"
"1206","1782","one","one","2","1","3","9x = 27","Fri Oct 18 10:36:59 2024","Algebra-3.osexp","437","no","4","3","1","575796","572356","576793","574004","572796","82"
"2318","1286","two","two","2","1","4","9x + 9 = 45","Fri Oct 18 10:36:59 2024","Algebra-3.osexp","476","no","5","4","1","581907","577816","582904","580612","578293","83"
"1391","1070","minimal","one","2","1","9","x + 1 = 10","Fri Oct 18 10:36:59 2024","Algebra-3.osexp","430","no","2","9","1","586836","583931","587833","585756","584363","84"
"1839","822","minimal","one","2","1","9","x - 5 = 4","Fri Oct 18 10:36:59 2024","Algebra-3.osexp","449","no","2","9","1","591980","588856","592977","591148","589307","85"
"2473","790","two","two","2","1","7","5x + 1 = 36","Fri Oct 18 10:36:59 2024","Algebra-3.osexp","495","no","5","7","1","597772","593999","598770","596972","594497","86"
"5001","0","two","two","2","0","3","4x + 5 = 17","Fri Oct 18 10:36:59 2024","Algebra-3.osexp","574","no","5","None","1","605384","599798","606381","596972","600374","87"
"865","846","one","one","2","0","1","3x = 3","Fri Oct 18 10:36:59 2024","Algebra-3.osexp","456","no","4","3","1","609594","607411","610590","608740","607873","88"
"1472","1030","one","one","2","1","9","3x = 27","Fri Oct 18 10:36:59 2024","Algebra-3.osexp","457","no","4","9","1","614596","611619","615593","613556","612082","89"
"4619","1278","two","two","2","0","9","7x - 7 = 56","Fri Oct 18 10:36:59 2024","Algebra-3.osexp","502","no","5","8","1","623034","616623","624031","621748","617127","90"
"3543","837","minimal","one","2","1","5","x + 1 = 6","Fri Oct 18 10:36:59 2024","Algebra-3.osexp","430","no","2","5","1","629883","625059","630880","629037","625491","91"
"1946","885","minimal","one","2","1","6","x - 3 = 3","Fri Oct 18 10:36:59 2024","Algebra-3.osexp","573","no","2","6","1","635323","631904","636320","634428","632480","92"
"1054","838","one","one","2","1","3","5x = 15","Fri Oct 18 10:36:59 2024","Algebra-3.osexp","562","no","4","3","1","639818","637352","640815","638972","637916","93"
"989","909","minimal","one","2","1","4","x - 2 = 2","Fri Oct 18 10:36:59 2024","Algebra-3.osexp","427","no","2","4","1","644180","641839","645177","643261","642269","94"
"4846","1286","two","two","2","0","3","4x - 1 = 11","Fri Oct 18 10:36:59 2024","Algebra-3.osexp","576","no","5","4","1","652934","646206","653932","651636","646788","95"
"2862","878","minimal","one","2","1","4","x - 3 = 1","Fri Oct 18 10:36:59 2024","Algebra-3.osexp","510","no","2","4","1","659226","654963","660223","658339","655475","96"
"939","734","one","one","2","1","3","5x = 15","Fri Oct 18 10:36:59 2024","Algebra-3.osexp","549","no","4","3","1","663484","661248","664481","662740","661799","97"
"1218","622","one","one","2","1","1","7x = 7","Fri Oct 18 10:36:59 2024","Algebra-3.osexp","475","no","4","1","1","667836","665507","668833","667204","665984","98"
"2235","862","one","one","2","0","4","6x = 24","Fri Oct 18 10:36:59 2024","Algebra-3.osexp","495","no","4","3","1","673466","669858","674463","672596","670359","99"
"1567","918","one","one","2","1","7","8x = 56","Fri Oct 18 10:36:59 2024","Algebra-3.osexp","415","no","4","7","1","678404","675490","679401","677476","675907","100"
"1471","646","two","two","2","1","1","7x + 1 = 8","Fri Oct 18 10:36:59 2024","Algebra-3.osexp","566","no","5","1","1","683132","680430","684129","682476","681003","101"
"2267","742","two","two","2","1","2","4x - 1 = 7","Fri Oct 18 10:36:59 2024","Algebra-3.osexp","440","no","5","2","1","688618","685156","689616","687867","685598","102"
"3388","1247","minimal","one","2","1","5","x + 4 = 9","Fri Oct 18 10:36:59 2024","Algebra-3.osexp","513","no","2","5","1","695802","690643","696799","694547","691158","103"
"4382","1045","two","two","2","1","3","9x - 1 = 26","Fri Oct 18 10:36:59 2024","Algebra-3.osexp","523","no","5","3","1","703787","697822","704785","702733","698348","104"
"1457","694","one","one","2","1","7","8x = 56","Fri Oct 18 10:36:59 2024","Algebra-3.osexp","461","no","4","7","1","708446","705815","709443","707739","706280","105"
"1772","1055","one","one","2","1","6","8x = 48","Fri Oct 18 10:36:59 2024","Algebra-3.osexp","492","no","4","6","1","713802","710469","714799","712739","710966","106"
"2803","862","minimal","one","2","1","1","x + 4 = 5","Fri Oct 18 10:36:59 2024","Algebra-3.osexp","503","no","2","1","1","720011","715829","721008","719140","716335","107"
"888","2000","one","one","2","0","8","3x = 24","Fri Oct 18 10:36:59 2024","Algebra-3.osexp","536","no","4","None","1","725477","722039","726474","723468","722577","108"
"1881","791","minimal","one","2","1","6","x + 1 = 7","Fri Oct 18 10:36:59 2024","Algebra-3.osexp","581","no","2","6","1","730770","727504","731767","729971","728089","109"
"5000","0","one","one","2","0","4","8x = 32","Fri Oct 18 10:36:59 2024","Algebra-3.osexp","395","no","4","None","1","738199","732793","739197","729971","733190","110"
"3925","878","two","two","2","1","4","9x + 4 = 40","Fri Oct 18 10:36:59 2024","Algebra-3.osexp","561","no","5","4","1","745603","740226","746600","744716","740789","111"
"3678","710","two","two","2","1","3","6x - 2 = 16","Fri Oct 18 10:36:59 2024","Algebra-3.osexp","515","no","5","3","1","752547","747631","753544","751828","748148","112"
"2224","885","two","two","2","1","2","6x - 1 = 11","Fri Oct 18 10:36:59 2024","Algebra-3.osexp","399","no","5","2","1","758098","754571","759094","757204","754977","113"
"4160","1053","two","two","2","1","3","8x + 5 = 29","Fri Oct 18 10:36:59 2024","Algebra-3.osexp","551","no","5","3","1","765898","760121","766895","764836","760674","114"
"3465","1038","one","one","2","1","6","3x = 18","Fri Oct 18 10:36:59 2024","Algebra-3.osexp","480","no","4","6","1","772926","767922","773923","771875","768408","115"
"1710","1086","minimal","one","2","1","2","x + 4 = 6","Fri Oct 18 10:36:59 2024","Algebra-3.osexp","560","no","2","2","1","778315","774946","779312","777220","775508","116"
"3377","838","minimal","one","2","1","3","x - 2 = 1","Fri Oct 18 10:36:59 2024","Algebra-3.osexp","470","no","2","3","1","785042","780340","786039","784195","780817","117"
"1388","766","minimal","one","2","1","2","x - 1 = 1","Fri Oct 18 10:36:59 2024","Algebra-3.osexp","413","no","2","2","1","789651","787066","790648","788875","787485","118"
"1587","686","one","one","2","1","1","4x = 4","Fri Oct 18 10:36:59 2024","Algebra-3.osexp","511","no","4","1","1","794474","791677","795471","793779","792190","119"
"4554","879","two","two","2","1","5","3x - 4 = 11","Fri Oct 18 10:36:59 2024","Algebra-3.osexp","540","no","5","5","1","802482","796493","803479","801595","797040","120"
"1853","726","minimal","one","2","1","1","x + 9 = 10","Fri Oct 18 10:36:59 2024","Algebra-3.osexp","403","no","2","1","1","807508","804510","808505","806771","804916","121"
"5001","0","two","two","2","0","9","6x - 3 = 51","Fri Oct 18 10:36:59 2024","Algebra-3.osexp","497","no","5","None","1","815044","809533","816041","806771","810034","122"
"1935","742","two","two","2","1","3","7x + 7 = 28","Fri Oct 18 10:36:59 2024","Algebra-3.osexp","433","no","5","3","1","820194","817067","821191","819443","817506","123"
"2568","1438","two","two","2","0","8","9x - 1 = 71","Fri Oct 18 10:36:59 2024","Algebra-3.osexp","499","no","5","7","1","826738","822220","827735","825291","822722","124"
"1672","982","two","two","2","1","8","9x - 2 = 70","Fri Oct 18 10:36:59 2024","Algebra-3.osexp","531","no","5","8","1","831966","828761","832963","830972","829298","125"
"2176","1037","one","one","2","1","3","9x = 27","Fri Oct 18 10:36:59 2024","Algebra-3.osexp","563","no","4","3","1","837779","833988","838776","836732","834553","126"
"1418","1110","minimal","one","2","1","7","x - 6 = 1","Fri Oct 18 10:36:59 2024","Algebra-3.osexp","450","no","2","7","1","842797","839803","843794","841676","840256","127"
"2522","1134","minimal","one","2","1","6","x + 1 = 7","Fri Oct 18 10:36:59 2024","Algebra-3.osexp","544","no","2","6","1","849042","844826","850039","847899","845375","128"
"2366","974","minimal","one","2","1","9","x + 1 = 10","Fri Oct 18 10:36:59 2024","Algebra-3.osexp","489","no","2","9","1","854914","851070","855912","853931","851563","129"
"967","1158","one","one","3","0","6","3x = 18","Fri Oct 18 10:36:59 2024","Algebra-3.osexp","422","no","4","8","1","920403","917839","921400","919236","918267","130"
"895","638","minimal","one","3","1","4","x + 1 = 5","Fri Oct 18 10:36:59 2024","Algebra-3.osexp","434","no","2","4","1","924410","922426","925407","923763","922866","131"
"3506","806","two","two","3","1","9","5x - 6 = 39","Fri Oct 18 10:36:59 2024","Algebra-3.osexp","489","no","5","9","1","931258","926443","932255","930443","926935","132"
"2053","1254","two","two","3","1","6","7x - 1 = 41","Fri Oct 18 10:36:59 2024","Algebra-3.osexp","478","no","5","6","1","937081","933284","938080","935819","933764","133"
"1061","622","one","one","3","1","8","8x = 64","Fri Oct 18 10:36:59 2024","Algebra-3.osexp","520","no","4","8","1","941316","939099","942314","940683","939620","134"
"1437","1079","one","one","3","1","6","2x = 12","Fri Oct 18 10:36:59 2024","Algebra-3.osexp","412","no","4","6","1","946283","943340","947280","945195","943756","135"
"2151","965","two","two","3","1","4","7x - 3 = 25","Fri Oct 18 10:36:59 2024","Algebra-3.osexp","466","no","5","4","1","951906","948310","952903","950932","948778","136"
"894","1254","minimal","one","3","1","2","x - 1 = 1","Fri Oct 18 10:36:59 2024","Algebra-3.osexp","520","no","2","2","1","956618","953935","957615","955355","954459","137"
"1905","910","one","one","3","1","3","2x = 6","Fri Oct 18 10:36:59 2024","Algebra-3.osexp","413","no","4","3","1","961882","958637","962879","960963","959056","138"
"2722","1366","two","two","3","1","5","7x - 2 = 33","Fri Oct 18 10:36:59 2024","Algebra-3.osexp","570","no","5","5","1","968578","963907","969575","967204","964480","139"
"2457","1134","minimal","one","3","1","5","x - 4 = 1","Fri Oct 18 10:36:59 2024","Algebra-3.osexp","410","no","2","5","1","974618","970603","975615","973475","971016","140"
"3757","798","two","two","3","1","5","4x - 3 = 17","Fri Oct 18 10:36:59 2024","Algebra-3.osexp","475","no","5","5","1","981686","976637","982684","980875","977116","141"
"3795","1310","two","two","3","1","4","8x + 9 = 41","Fri Oct 18 10:36:59 2024","Algebra-3.osexp","575","no","5","4","1","989402","983710","990399","988084","984287","142"
"1247","606","one","one","3","1","1","7x = 7","Fri Oct 18 10:36:59 2024","Algebra-3.osexp","479","no","4","1","1","993770","991426","994767","993155","991907","143"
"2791","1238","one","one","3","1","3","7x = 21","Fri Oct 18 10:36:59 2024","Algebra-3.osexp","571","no","4","3","1","1000411","995796","1001408","999163","996370","144"
"1512","1238","minimal","one","3","0","9","x + 1 = 10","Fri Oct 18 10:36:59 2024","Algebra-3.osexp","447","no","2","1","1","1005650","1002436","1006647","1004403","1002889","145"
"1366","646","one","one","3","1","7","5x = 35","Fri Oct 18 10:36:59 2024","Algebra-3.osexp","569","no","4","7","1","1010274","1007676","1011271","1009619","1008251","146"
"2346","942","two","two","3","1","5","8x - 1 = 39","Fri Oct 18 10:36:59 2024","Algebra-3.osexp","421","no","5","5","1","1016027","1012300","1017024","1015075","1012727","147"
"3013","654","two","two","3","1","6","8x + 2 = 50","Fri Oct 18 10:36:59 2024","Algebra-3.osexp","428","no","5","6","1","1022161","1018054","1023158","1021499","1018484","148"
"1173","654","one","one","3","1","7","5x = 35","Fri Oct 18 10:36:59 2024","Algebra-3.osexp","488","no","4","7","1","1026514","1024185","1027511","1025851","1024676","149"
"2181","878","one","one","3","0","9","7x = 63","Fri Oct 18 10:36:59 2024","Algebra-3.osexp","457","no","4","7","1","1032065","1028535","1033062","1031179","1028996","150"
"1056","1021","minimal","one","3","1","4","x + 3 = 7","Fri Oct 18 10:36:59 2024","Algebra-3.osexp","464","no","2","4","1","1036647","1034087","1037644","1035612","1034553","151"
"919","942","minimal","one","3","1","6","x + 4 = 10","Fri Oct 18 10:36:59 2024","Algebra-3.osexp","489","no","2","6","1","1041035","1038671","1042034","1040083","1039162","152"
"1075","942","minimal","one","3","1","3","x + 2 = 5","Fri Oct 18 10:36:59 2024","Algebra-3.osexp","476","no","2","3","1","1045561","1043056","1046558","1044611","1043534","153"
"1101","1782","one","one","3","1","3","4x = 12","Fri Oct 18 10:36:59 2024","Algebra-3.osexp","417","no","4","3","1","1050897","1047584","1051894","1049107","1048004","154"
"2380","1269","minimal","one","3","1","4","x - 2 = 2","Fri Oct 18 10:36:59 2024","Algebra-3.osexp","586","no","2","4","1","1057170","1052921","1058167","1055892","1053509","155"
"923","821","one","one","3","1","2","9x = 18","Fri Oct 18 10:36:59 2024","Algebra-3.osexp","560","no","4","2","1","1061515","1059194","1062512","1060684","1059758","156"
"3342","886","two","two","3","1","4","8x - 3 = 29","Fri Oct 18 10:36:59 2024","Algebra-3.osexp","576","no","5","4","1","1068361","1063540","1069358","1067467","1064123","157"
"5000","0","two","two","3","0","9","2x - 4 = 14","Fri Oct 18 10:36:59 2024","Algebra-3.osexp","441","no","5","None","1","1075838","1070385","1076835","1067467","1070828","158"
"2527","941","two","two","3","1","4","8x + 4 = 36","Fri Oct 18 10:36:59 2024","Algebra-3.osexp","409","no","5","4","1","1081754","1077860","1082752","1080804","1078275","159"
"2724","774","one","one","3","1","4","6x = 24","Fri Oct 18 10:36:59 2024","Algebra-3.osexp","552","no","4","4","1","1087849","1083783","1088846","1087067","1084341","160"
"2146","814","one","one","3","1","4","5x = 20","Fri Oct 18 10:36:59 2024","Algebra-3.osexp","426","no","4","4","1","1093279","1089875","1094276","1092450","1090303","161"
"1136","830","one","one","3","1","4","7x = 28","Fri Oct 18 10:36:59 2024","Algebra-3.osexp","429","no","4","4","1","1097714","1095306","1098711","1096875","1095737","162"
"5000","0","two","two","3","0","6","4x - 3 = 21","Fri Oct 18 10:36:59 2024","Algebra-3.osexp","565","no","5","None","1","1105322","1099742","1106319","1096875","1100313","163"
"3303","1085","two","two","3","1","3","4x - 2 = 10","Fri Oct 18 10:36:59 2024","Algebra-3.osexp","518","no","5","3","1","1112265","1107345","1113262","1111171","1107866","164"
"1670","926","minimal","one","3","1","9","x - 2 = 7","Fri Oct 18 10:36:59 2024","Algebra-3.osexp","529","no","2","9","1","1117433","1114291","1118430","1116499","1114827","165"
"5000","0","two","two","3","0","9","9x - 3 = 78","Fri Oct 18 10:36:59 2024","Algebra-3.osexp","590","no","5","None","1","1125058","1119456","1126055","1116499","1120049","166"
"1536","998","minimal","one","3","1","8","x - 2 = 6","Fri Oct 18 10:36:59 2024","Algebra-3.osexp","552","no","2","8","1","1130186","1127082","1131183","1129179","1127641","167"
"3209","798","minimal","one","3","1","3","x - 2 = 1","Fri Oct 18 10:36:59 2024","Algebra-3.osexp","496","no","2","3","1","1136729","1132210","1137727","1135923","1132712","168"
"2736","1902","two","two","3","1","4","3x - 3 = 9","Fri Oct 18 10:36:59 2024","Algebra-3.osexp","576","no","5","4","1","1143987","1138755","1144984","1142075","1139337","169"
"740","613","one","one","3","0","8","5x = 40","Fri Oct 18 10:36:59 2024","Algebra-3.osexp","464","no","4","4","1","1147841","1146011","1148838","1147220","1146477","170"
"5000","0","one","one","3","0","3","3x = 9","Fri Oct 18 10:36:59 2024","Algebra-3.osexp","435","no","4","None","1","1155322","1149868","1156319","1147220","1150309","171"
"2261","1102","minimal","one","3","1","6","x - 4 = 2","Fri Oct 18 10:36:59 2024","Algebra-3.osexp","500","no","2","6","1","1161226","1157349","1162223","1160115","1157852","172"
"5001","0","two","two","3","0","7","4x + 8 = 36","Fri Oct 18 10:36:59 2024","Algebra-3.osexp","585","no","5","None","1","1168850","1163253","1169847","1160115","1163840","173"
"1215","630","minimal","one","3","1","1","x + 7 = 8","Fri Oct 18 10:36:59 2024","Algebra-3.osexp","403","no","2","1","1","1173138","1170876","1174135","1172499","1171282","174"
"2193","526","two","two","3","1","1","6x + 5 = 11","Fri Oct 18 10:36:59 2024","Algebra-3.osexp","489","no","5","1","1","1178386","1175165","1179383","1177850","1175656","175"
"3817","774","two","two","3","1","5","9x + 3 = 48","Fri Oct 18 10:36:59 2024","Algebra-3.osexp","478","no","5","5","1","1185482","1180400","1186479","1184699","1180880","176"
"1264","646","minimal","one","3","1","2","x + 6 = 8","Fri Oct 18 10:36:59 2024","Algebra-3.osexp","414","no","2","2","1","1189841","1187504","1190838","1189187","1187921","177"
"1305","910","minimal","one","3","1","4","x - 3 = 1","Fri Oct 18 10:36:59 2024","Algebra-3.osexp","415","no","2","4","1","1194513","1191870","1195510","1193595","1192288","178"
"1107","918","minimal","one","3","1","9","x + 1 = 10","Fri Oct 18 10:36:59 2024","Algebra-3.osexp","547","no","2","9","1","1199122","1196536","1200119","1198195","1197086","179"
"1264","1622","minimal","one","3","0","6","x - 3 = 3","Fri Oct 18 10:36:59 2024","Algebra-3.osexp","456","no","2","9","1","1204506","1201147","1205503","1202875","1201609","180"
"2345","806","two","two","3","1","3","2x + 8 = 14","Fri Oct 18 10:36:59 2024","Algebra-3.osexp","517","no","5","3","1","1210213","1206527","1211210","1209395","1207048","181"
"1263","789","one","one","3","1","8","7x = 56","Fri Oct 18 10:36:59 2024","Algebra-3.osexp","421","no","4","8","1","1214729","1212241","1215726","1213931","1212666","182"
"1225","622","minimal","one","3","1","1","x + 3 = 4","Fri Oct 18 10:36:59 2024","Algebra-3.osexp","484","no","2","1","1","1219099","1216753","1220097","1218467","1217240","183"
"1071","1022","minimal","one","3","1","5","x + 1 = 6","Fri Oct 18 10:36:59 2024","Algebra-3.osexp","398","no","2","5","1","1223637","1221128","1224634","1222603","1221530","184"
"872","854","one","one","3","1","4","8x = 32","Fri Oct 18 10:36:59 2024","Algebra-3.osexp","479","no","4","4","1","1227874","1225656","1228871","1227011","1226137","185"
"859","781","one","one","3","1","7","3x = 21","Fri Oct 18 10:36:59 2024","Algebra-3.osexp","459","no","4","7","1","1232010","1229894","1233007","1231219","1230358","186"
"736","559","one","one","3","1","1","6x = 6","Fri Oct 18 10:36:59 2024","Algebra-3.osexp","485","no","4","1","1","1235825","1234033","1236822","1235258","1234521","187"
"2375","558","two","two","3","1","1","7x + 8 = 15","Fri Oct 18 10:36:59 2024","Algebra-3.osexp","449","no","5","1","1","1241241","1237845","1242239","1240675","1238298","188"
"745","918","minimal","one","3","1","3","x + 4 = 7","Fri Oct 18 10:36:59 2024","Algebra-3.osexp","456","no","2","3","1","1245401","1243267","1246398","1244475","1243728","189"
